volume_adjust_loop.thisRepN,volume_adjust_loop.thisTrialN,volume_adjust_loop.thisN,volume_adjust_loop.thisIndex,blocks.thisRepN,blocks.thisTrialN,blocks.thisN,blocks.thisIndex,trials.thisRepN,trials.thisTrialN,trials.thisN,trials.thisIndex,thisRow.t,notes,path,resp order,files chosen,Instructions_0.started,welcome_text.started,instructions_0_keypress.started,Instructions_0.stopped,instructions_0_keypress.keys,instructions_0_keypress.rt,instructions_0_keypress.duration,Consent_Form.started,consent_text.started,agree_button.started,disagree_button.started,Consent_Form.stopped,agree_button.numClicks,agree_button.timesOn,agree_button.timesOff,disagree_button.numClicks,disagree_button.timesOn,disagree_button.timesOff,demographics.started,age_slider.started,Gender.started,Handedness.started,age_text.started,handedness_text.started,gender_text.started,demographics.stopped,age_slider.response,age_slider.rt,Gender.text,Handedness.response,Handedness.rt,instructions_1.started,instructions_text1.started,instructions1_key_resp.started,instr1_cnt_text.started,instructions_1.stopped,instructions1_key_resp.keys,instructions1_key_resp.rt,instructions1_key_resp.duration,instructions_2.started,instructions_text2.started,key_stim_association.started,instr2_cnt_text.started,instructions2_key_resp.started,instructions_2.stopped,instructions2_key_resp.keys,instructions2_key_resp.rt,instructions2_key_resp.duration,instructions_3.started,instructions_text3.started,examplestim_image_2.started,instructions3_key_resp.started,instr3_cnt_text.started,instructions_3.stopped,instructions3_key_resp.keys,instructions3_key_resp.rt,instructions3_key_resp.duration,instructions_4.started,sound_2.started,instructions_text4.started,handplacement_image.started,sound_2.stopped,instructions4_key_resp.started,instr4_cnt_text.started,instructions_4.stopped,instructions4_key_resp.keys,instructions4_key_resp.rt,instructions4_key_resp.duration,instructions_5.started,instructions_text5.started,image.started,instructions5_key_resp.started,instr5_cnt_text.started,instructions_5.stopped,instructions5_key_resp.keys,instructions5_key_resp.rt,instructions5_key_resp.duration,volume_adjuster.started,volume_adjuster_key_resp.started,volume_adjustment_instructions.started,volume_adjuster_sound.started,volume_adjuster.stopped,volume_adjuster_key_resp.keys,volume_adjuster_key_resp.rt,volume_adjuster_key_resp.duration,begin_exp_timer.started,text_countdown_2.started,begin_exp_timer.stopped,stim_display.started,node idx,stim,selected music stim,node type,space.started,h.started,j.started,k.started,l.started,key_resp.started,text.started,accuracy_text.started,stim_display.stopped,accuracy,key_resp.keys,key_resp.rt,key_resp.duration,sound_display.started,sound_1.started,sound_1.stopped,sound_display.stopped,participant,date,expName,psychopyVersion,frameRate,expStart,
,,,,,,,,,,,,,,[7 8 6 ... 1 4 2],"[('h', 'space'), ('space',), ('h',), ('j', 'space'), ('j', 'l'), ('h', 'l'), ('l',), ('l', 'space'), ('k',), ('h', 'j'), ('j',), ('j', 'k'), ('h', 'k'), ('k', 'l'), ('k', 'space')]","['0701 F+.wav' '0703 F+.wav' '0704 F+.wav' '0702 F+.wav' '0705 F+.wav'
 '1101 A+.wav' '1102 A+.wav' '1103 A+.wav' '1105 A+.wav' '1104 A+.wav'
 '0301 D.wav' '0305 D.wav' '0303 D.wav' '0302 D.wav' '0304 D.wav']",0.007491777427958368,0.015394079748148215,0.015394079748148215,2.899276510248683,return,2.878584244537592,None,,,,,,,,,,,,,,,,,,,,,,,,,,,,,,,,,,,,,,,,,,,,,,,,,,,,,,,,,,,,,,,,,,,,,,,,,,,,,,,,,,,,,,,,,,,,,,,,,,,,,,,,967730,2010-09-19_00h59.21.104,eb_music,2023.2.3,119.96494658691083,2010-09-19 00h59.36.401143 -0400,
,,,,,,,,,,,,,,,,,,,,,,,,2.899302771767452,2.9153802547186842,2.9153802547186842,2.9153802547186842,5.483263564225467,1,[2.581154734076563],[2.5811607712072373],0,,,5.4833456692039135,5.557341271757878,5.557341271757878,5.557341271757878,5.557341271757878,5.557341271757878,5.557341271757878,7.065552373316905,None,None,,Right Handed,1.5499174120510588,7.065579238548821,7.074199053860866,9.066083640824559,9.066083640824559,10.20841111170148,space,1.139208689121574,None,,,,,,,,,,,,,,,,,,,,,,,,,,,,,,,,,,,,,,,,,,,,,,,,,,,,,,,,,,,,,,,,,,,,,,,,967730,2010-09-19_00h59.21.104,eb_music,2023.2.3,119.96494658691083,2010-09-19 00h59.36.401143 -0400,
,,,,,,,,,,,,,,,,,,,,,,,,,,,,,,,,,,,,,,,,,,,,,,,,,,,,,,,,10.208435863937552,10.216211688368162,10.216211688368162,13.208184115584572,13.208184115584572,14.483905009369664,space,1.269327270444137,None,,,,,,,,,,,,,,,,,,,,,,,,,,,,,,,,,,,,,,,,,,,,,,,,,,,,,,,,,,,,,,,967730,2010-09-19_00h59.21.104,eb_music,2023.2.3,119.96494658691083,2010-09-19 00h59.36.401143 -0400,
,,,,,,,,,,,,,,,,,,,,,,,,,,,,,,,,,,,,,,,,,,,,,,,,,,,,,,,,,,,,,,,,,14.483933987597311,14.491628612619024,14.491628612619024,17.483684050383545,17.483684050383545,19.867800721557842,k,2.370040798929722,None,,,,,,,,,,,,,,,,,,,,,,,,,,,,,,,,,,,,,,,,,,,,,,,,,,,,,,967730,2010-09-19_00h59.21.104,eb_music,2023.2.3,119.96494658691083,2010-09-19 00h59.36.401143 -0400,
,,,,,,,,,,,,,,,,,,,,,,,,,,,,,,,,,,,,,,,,,,,,,,,,,,,,,,,,,,,,,,,,,,,,,,,,,,19.867828190502905,19.875389908090803,20.36726251134985,20.36726251134985,20.39230573720613,22.867556217761717,22.867556217761717,23.976581366033656,space,1.1053370650851093,None,,,,,,,,,,,,,,,,,,,,,,,,,,,,,,,,,,,,,,,,,,,967730,2010-09-19_00h59.21.104,eb_music,2023.2.3,119.96494658691083,2010-09-19 00h59.36.401143 -0400,
,,,,,,,,,,,,,,,,,,,,,,,,,,,,,,,,,,,,,,,,,,,,,,,,,,,,,,,,,,,,,,,,,,,,,,,,,,,,,,,,,,,,,23.97661215540063,23.98435447375539,23.98435447375539,26.976332938102587,26.976332938102587,27.41857268946933,space,0.4366913263334027,None,,,,,,,,,,,,,,,,,,,,,,,,,,,,,,,,,,967730,2010-09-19_00h59.21.104,eb_music,2023.2.3,119.96494658691083,2010-09-19 00h59.36.401143 -0400,
0,0,0,0,,,,,,,,,27.484741755694245,,,,,,,,,,,,,,,,,,,,,,,,,,,,,,,,,,,,,,,,,,,,,,,,,,,,,,,,,,,,,,,,,,,,,,,,,,,,,,,,,,27.420720096883883,27.484741755694245,27.484741755694245,27.48328246044473,29.477205303498636,left,1.9843928095357342,None,,,,,,,,,,,,,,,,,,,,,,,,,,967730,2010-09-19_00h59.21.104,eb_music,2023.2.3,119.96494658691083,2010-09-19 00h59.36.401143 -0400,
1,0,1,0,,,,,,,,,29.559977686764682,,,,,,,,,,,,,,,,,,,,,,,,,,,,,,,,,,,,,,,,,,,,,,,,,,,,,,,,,,,,,,,,,,,,,,,,,,,,,,,,,,29.498564068446626,29.559977686764682,29.559977686764682,29.558120665340084,29.860553146069606,left,0.2931790685431679,None,,,,,,,,,,,,,,,,,,,,,,,,,,967730,2010-09-19_00h59.21.104,eb_music,2023.2.3,119.96494658691083,2010-09-19 00h59.36.401143 -0400,
2,0,2,0,,,,,,,,,29.943362959546448,,,,,,,,,,,,,,,,,,,,,,,,,,,,,,,,,,,,,,,,,,,,,,,,,,,,,,,,,,,,,,,,,,,,,,,,,,,,,,,,,,29.87898148774218,29.943362959546448,29.943362959546448,29.933329036908642,30.252227097540754,left,0.3018025061337539,None,,,,,,,,,,,,,,,,,,,,,,,,,,967730,2010-09-19_00h59.21.104,eb_music,2023.2.3,119.96494658691083,2010-09-19 00h59.36.401143 -0400,
3,0,3,0,,,,,,,,,30.32669812414281,,,,,,,,,,,,,,,,,,,,,,,,,,,,,,,,,,,,,,,,,,,,,,,,,,,,,,,,,,,,,,,,,,,,,,,,,,,,,,,,,,30.2690543921334,30.32669812414281,30.32669812414281,30.325044644582047,30.602364381894404,left,0.27047583457294877,None,,,,,,,,,,,,,,,,,,,,,,,,,,967730,2010-09-19_00h59.21.104,eb_music,2023.2.3,119.96494658691083,2010-09-19 00h59.36.401143 -0400,
4,0,4,0,,,,,,,,,30.67674092739992,,,,,,,,,,,,,,,,,,,,,,,,,,,,,,,,,,,,,,,,,,,,,,,,,,,,,,,,,,,,,,,,,,,,,,,,,,,,,,,,,,30.618437336997545,30.67674092739992,30.67674092739992,30.67510918150995,30.83576166856642,left,0.15245717259426783,None,,,,,,,,,,,,,,,,,,,,,,,,,,967730,2010-09-19_00h59.21.104,eb_music,2023.2.3,119.96494658691083,2010-09-19 00h59.36.401143 -0400,
5,0,5,0,,,,,,,,,30.910107726561478,,,,,,,,,,,,,,,,,,,,,,,,,,,,,,,,,,,,,,,,,,,,,,,,,,,,,,,,,,,,,,,,,,,,,,,,,,,,,,,,,,30.849023735583387,30.910107726561478,30.910107726561478,30.900328057686057,31.80241738790255,left,0.8870996174873653,None,,,,,,,,,,,,,,,,,,,,,,,,,,967730,2010-09-19_00h59.21.104,eb_music,2023.2.3,119.96494658691083,2010-09-19 00h59.36.401143 -0400,
6,0,6,0,,,,,,,,,31.8768742272473,,,,,,,,,,,,,,,,,,,,,,,,,,,,,,,,,,,,,,,,,,,,,,,,,,,,,,,,,,,,,,,,,,,,,,,,,,,,,,,,,,31.818556147730988,31.8768742272473,31.8768742272473,31.8752216532562,32.019070994243066,left,0.1363778785039358,None,,,,,,,,,,,,,,,,,,,,,,,,,,967730,2010-09-19_00h59.21.104,eb_music,2023.2.3,119.96494658691083,2010-09-19 00h59.36.401143 -0400,
7,0,7,0,,,,,,,,,32.10190163582092,,,,,,,,,,,,,,,,,,,,,,,,,,,,,,,,,,,,,,,,,,,,,,,,,,,,,,,,,,,,,,,,,,,,,,,,,,,,,,,,,,32.03840792409642,32.10190163582092,32.10190163582092,32.10006966848914,32.21084226426217,left,0.10335145277508673,None,,,,,,,,,,,,,,,,,,,,,,,,,,967730,2010-09-19_00h59.21.104,eb_music,2023.2.3,119.96494658691083,2010-09-19 00h59.36.401143 -0400,
8,0,8,0,,,,,,,,,32.29360861039743,,,,,,,,,,,,,,,,,,,,,,,,,,,,,,,,,,,,,,,,,,,,,,,,,,,,,,,,,,,,,,,,,,,,,,,,,,,,,,,,,,32.22844925429365,32.29360861039743,32.29360861039743,32.28360064742187,32.41075671811916,left,0.11162051078963486,None,,,,,,,,,,,,,,,,,,,,,,,,,,967730,2010-09-19_00h59.21.104,eb_music,2023.2.3,119.96494658691083,2010-09-19 00h59.36.401143 -0400,
9,0,9,0,,,,,,,,,32.48526758978426,,,,,,,,,,,,,,,,,,,,,,,,,,,,,,,,,,,,,,,,,,,,,,,,,,,,,,,,,,,,,,,,,,,,,,,,,,,,,,,,,,32.429043489075184,32.48526758978426,32.48526758978426,32.48365033300811,33.36090148851497,right,0.8720282223789582,None,,,,,,,,,,,,,,,,,,,,,,,,,,967730,2010-09-19_00h59.21.104,eb_music,2023.2.3,119.96494658691083,2010-09-19 00h59.36.401143 -0400,
10,0,10,0,,,,,,,,,33.435373420686574,,,,,,,,,,,,,,,,,,,,,,,,,,,,,,,,,,,,,,,,,,,,,,,,,,,,,,,,,,,,,,,,,,,,,,,,,,,,,,,,,,33.378716457701444,33.435373420686574,33.435373420686574,33.43373020424817,33.56933433388713,right,0.1299199597202687,None,,,,,,,,,,,,,,,,,,,,,,,,,,967730,2010-09-19_00h59.21.104,eb_music,2023.2.3,119.96494658691083,2010-09-19 00h59.36.401143 -0400,
11,0,11,0,,,,,,,,,33.64369367356994,,,,,,,,,,,,,,,,,,,,,,,,,,,,,,,,,,,,,,,,,,,,,,,,,,,,,,,,,,,,,,,,,,,,,,,,,,,,,,,,,,33.58877932838129,33.64369367356994,33.64369367356994,33.642091207764246,33.76091120829551,right,0.11362936605291907,None,,,,,,,,,,,,,,,,,,,,,,,,,,967730,2010-09-19_00h59.21.104,eb_music,2023.2.3,119.96494658691083,2010-09-19 00h59.36.401143 -0400,
12,0,12,0,,,,,,,,,33.83542298553027,,,,,,,,,,,,,,,,,,,,,,,,,,,,,,,,,,,,,,,,,,,,,,,,,,,,,,,,,,,,,,,,,,,,,,,,,,,,,,,,,,33.779055502965434,33.83542298553027,33.83542298553027,33.83375441314265,33.9609427824895,right,0.12190265005892797,None,,,,,,,,,,,,,,,,,,,,,,,,,,967730,2010-09-19_00h59.21.104,eb_music,2023.2.3,119.96494658691083,2010-09-19 00h59.36.401143 -0400,
13,0,13,0,,,,,,,,,34.03543071305762,,,,,,,,,,,,,,,,,,,,,,,,,,,,,,,,,,,,,,,,,,,,,,,,,,,,,,,,,,,,,,,,,,,,,,,,,,,,,,,,,,33.9789554677086,34.03543071305762,34.03543071305762,34.033786892906186,34.160968017696064,right,0.12190295191544465,None,,,,,,,,,,,,,,,,,,,,,,,,,,967730,2010-09-19_00h59.21.104,eb_music,2023.2.3,119.96494658691083,2010-09-19 00h59.36.401143 -0400,
14,0,14,0,,,,,,,,,34.23545957054273,,,,,,,,,,,,,,,,,,,,,,,,,,,,,,,,,,,,,,,,,,,,,,,,,,,,,,,,,,,,,,,,,,,,,,,,,,,,,,,,,,34.17865982941487,34.23545957054273,34.23545957054273,34.23381393925197,34.33605296012604,right,0.09787788816345255,None,,,,,,,,,,,,,,,,,,,,,,,,,,967730,2010-09-19_00h59.21.104,eb_music,2023.2.3,119.96494658691083,2010-09-19 00h59.36.401143 -0400,
15,0,15,0,,,,,,,,,34.41080984486996,,,,,,,,,,,,,,,,,,,,,,,,,,,,,,,,,,,,,,,,,,,,,,,,,,,,,,,,,,,,,,,,,,,,,,,,,,,,,,,,,,34.348470130691794,34.41080984486996,34.41080984486996,34.40069209667143,34.536086345459125,right,0.12254560448582197,None,,,,,,,,,,,,,,,,,,,,,,,,,,967730,2010-09-19_00h59.21.104,eb_music,2023.2.3,119.96494658691083,2010-09-19 00h59.36.401143 -0400,
16,0,16,0,,,,,,,,,34.61083960792462,,,,,,,,,,,,,,,,,,,,,,,,,,,,,,,,,,,,,,,,,,,,,,,,,,,,,,,,,,,,,,,,,,,,,,,,,,,,,,,,,,34.548951169271504,34.61083960792462,34.61083960792462,34.60072850056991,34.72776615294708,right,0.11352250883840043,None,,,,,,,,,,,,,,,,,,,,,,,,,,967730,2010-09-19_00h59.21.104,eb_music,2023.2.3,119.96494658691083,2010-09-19 00h59.36.401143 -0400,
17,0,17,0,,,,,,,,,34.81084703359545,,,,,,,,,,,,,,,,,,,,,,,,,,,,,,,,,,,,,,,,,,,,,,,,,,,,,,,,,,,,,,,,,,,,,,,,,,,,,,,,,,34.74909744895001,34.81084703359545,34.81084703359545,34.80055381619106,34.94448616772604,right,0.12953841305557035,None,,,,,,,,,,,,,,,,,,,,,,,,,,967730,2010-09-19_00h59.21.104,eb_music,2023.2.3,119.96494658691083,2010-09-19 00h59.36.401143 -0400,
18,0,18,0,,,,,,,,,35.01890225643797,,,,,,,,,,,,,,,,,,,,,,,,,,,,,,,,,,,,,,,,,,,,,,,,,,,,,,,,,,,,,,,,,,,,,,,,,,,,,,,,,,34.95833866613225,35.01890225643797,35.01890225643797,35.009084251782205,35.63619555715479,right,0.6095123447249762,None,,,,,,,,,,,,,,,,,,,,,,,,,,967730,2010-09-19_00h59.21.104,eb_music,2023.2.3,119.96494658691083,2010-09-19 00h59.36.401143 -0400,
19,0,19,0,,,,,,,,,35.71093674535871,,,,,,,,,,,,,,,,,,,,,,,,,,,,,,,,,,,,,,,,,,,,,,,,,,,,,,,,,,,,,,,,,,,,,,,,,,,,,,,,,,35.64887715404825,35.71093674535871,35.71093674535871,35.700799376485115,35.88627011571975,right,0.1735026104553299,None,,,,,,,,,,,,,,,,,,,,,,,,,,967730,2010-09-19_00h59.21.104,eb_music,2023.2.3,119.96494658691083,2010-09-19 00h59.36.401143 -0400,
20,0,20,0,,,,,,,,,35.96065692434752,,,,,,,,,,,,,,,,,,,,,,,,,,,,,,,,,,,,,,,,,,,,,,,,,,,,,,,,,,,,,,,,,,,,,,,,,,,,,,,,,,35.89906581438481,35.96065692434752,35.96065692434752,35.95086457749749,36.4612965583525,left,0.49977572059185604,None,,,,,,,,,,,,,,,,,,,,,,,,,,967730,2010-09-19_00h59.21.104,eb_music,2023.2.3,119.96494658691083,2010-09-19 00h59.36.401143 -0400,
21,0,21,0,,,,,,,,,36.53569091339375,,,,,,,,,,,,,,,,,,,,,,,,,,,,,,,,,,,,,,,,,,,,,,,,,,,,,,,,,,,,,,,,,,,,,,,,,,,,,,,,,,36.478699795220564,36.53569091339375,36.53569091339375,36.534075769613445,36.652954028456634,left,0.10875408110041462,None,,,,,,,,,,,,,,,,,,,,,,,,,,967730,2010-09-19_00h59.21.104,eb_music,2023.2.3,119.96494658691083,2010-09-19 00h59.36.401143 -0400,
22,0,22,0,,,,,,,,,36.72740875480554,,,,,,,,,,,,,,,,,,,,,,,,,,,,,,,,,,,,,,,,,,,,,,,,,,,,,,,,,,,,,,,,,,,,,,,,,,,,,,,,,,36.668581141452364,36.72740875480554,36.72740875480554,36.72578485718568,36.84464560834965,left,0.10903088354609736,None,,,,,,,,,,,,,,,,,,,,,,,,,,967730,2010-09-19_00h59.21.104,eb_music,2023.2.3,119.96494658691083,2010-09-19 00h59.36.401143 -0400,
23,0,23,0,,,,,,,,,36.91911663495159,,,,,,,,,,,,,,,,,,,,,,,,,,,,,,,,,,,,,,,,,,,,,,,,,,,,,,,,,,,,,,,,,,,,,,,,,,,,,,,,,,36.85847818422428,36.91911663495159,36.91911663495159,36.909295611730435,37.02813242567083,left,0.10131965641471652,None,,,,,,,,,,,,,,,,,,,,,,,,,,967730,2010-09-19_00h59.21.104,eb_music,2023.2.3,119.96494658691083,2010-09-19 00h59.36.401143 -0400,
24,0,24,0,,,,,,,,,37.10243290332869,,,,,,,,,,,,,,,,,,,,,,,,,,,,,,,,,,,,,,,,,,,,,,,,,,,,,,,,,,,,,,,,,,,,,,,,,,,,,,,,,,37.048299461004945,37.10243290332869,37.10243290332869,37.10079421473838,37.21131980130599,left,0.10203686755016861,None,,,,,,,,,,,,,,,,,,,,,,,,,,967730,2010-09-19_00h59.21.104,eb_music,2023.2.3,119.96494658691083,2010-09-19 00h59.36.401143 -0400,
25,0,25,0,,,,,,,,,37.28581648571378,,,,,,,,,,,,,,,,,,,,,,,,,,,,,,,,,,,,,,,,,,,,,,,,,,,,,,,,,,,,,,,,,,,,,,,,,,,,,,,,,,37.22862734965133,37.28581648571378,37.28581648571378,37.28415727087886,37.403037944574294,left,0.11065909771468796,None,,,,,,,,,,,,,,,,,,,,,,,,,,967730,2010-09-19_00h59.21.104,eb_music,2023.2.3,119.96494658691083,2010-09-19 00h59.36.401143 -0400,
26,0,26,0,,,,,,,,,37.47748753936207,,,,,,,,,,,,,,,,,,,,,,,,,,,,,,,,,,,,,,,,,,,,,,,,,,,,,,,,,,,,,,,,,,,,,,,,,,,,,,,,,,37.418550352085504,37.47748753936207,37.47748753936207,37.475865754737946,37.61977305218011,left,0.13499477184473108,None,,,,,,,,,,,,,,,,,,,,,,,,,,967730,2010-09-19_00h59.21.104,eb_music,2023.2.3,119.96494658691083,2010-09-19 00h59.36.401143 -0400,
27,0,27,0,,,,,,,,,37.69417706663069,,,,,,,,,,,,,,,,,,,,,,,,,,,,,,,,,,,,,,,,,,,,,,,,,,,,,,,,,,,,,,,,,,,,,,,,,,,,,,,,,,37.63825059646854,37.69417706663069,37.69417706663069,37.692507286816884,37.861471695516116,left,0.16632234897508624,None,,,,,,,,,,,,,,,,,,,,,,,,,,967730,2010-09-19_00h59.21.104,eb_music,2023.2.3,119.96494658691083,2010-09-19 00h59.36.401143 -0400,
28,0,28,0,,,,,,,,,37.9358853693758,,,,,,,,,,,,,,,,,,,,,,,,,,,,,,,,,,,,,,,,,,,,,,,,,,,,,,,,,,,,,,,,,,,,,,,,,,,,,,,,,,37.87853624934803,37.9358853693758,37.9358853693758,37.93423249352818,38.21969843324382,left,0.2765839016285554,None,,,,,,,,,,,,,,,,,,,,,,,,,,967730,2010-09-19_00h59.21.104,eb_music,2023.2.3,119.96494658691083,2010-09-19 00h59.36.401143 -0400,
29,0,29,0,,,,,,,,,38.29421473832667,,,,,,,,,,,,,,,,,,,,,,,,,,,,,,,,,,,,,,,,,,,,,,,,,,,,,,,,,,,,,,,,,,,,,,,,,,,,,,,,,,38.23868007795147,38.29421473832667,38.29421473832667,38.292569710749056,39.82839485974546,return,1.5263747150474956,None,,,,,,,,,,,,,,,,,,,,,,,,,,967730,2010-09-19_00h59.21.104,eb_music,2023.2.3,119.96494658691083,2010-09-19 00h59.36.401143 -0400,
,,,,0,0,0,0,0,0,0,0,44.88660547833399,,,,,,,,,,,,,,,,,,,,,,,,,,,,,,,,,,,,,,,,,,,,,,,,,,,,,,,,,,,,,,,,,,,,,,,,,,,,,,,,,,,,,,,,,,39.84818789482836,39.86939542965058,44.85333092653059,44.8571814085351,7,"('l', 'space')",musical_stimuli/1103 A+.wav,non boundary,44.88660547833399,44.88660547833399,44.88660547833399,44.88660547833399,44.88660547833399,44.88660547833399,44.88660547833399,44.88660547833399,45.8289336736666,1,"['space', 'l']","[0.878249485636502, 0.9022310820470238]","[None, None]",45.830602940324184,45.83655757370136,46.361785022603044,46.3480321368545,967730,2010-09-19_00h59.21.104,eb_music,2023.2.3,119.96494658691083,2010-09-19 00h59.36.401143 -0400,
,,,,0,0,0,0,1,0,1,0,46.361785022603044,,,,,,,,,,,,,,,,,,,,,,,,,,,,,,,,,,,,,,,,,,,,,,,,,,,,,,,,,,,,,,,,,,,,,,,,,,,,,,,,,,,,,,,,,,,,,46.34902886714451,8,"('k',)",musical_stimuli/1105 A+.wav,non boundary,46.361785022603044,46.361785022603044,46.361785022603044,46.361785022603044,46.361785022603044,46.361785022603044,46.361785022603044,46.361785022603044,46.970661657458095,1,['k'],[0.5471364077623093],[None],46.9720166914592,46.978334458252085,47.50358877238568,47.48799244875681,967730,2010-09-19_00h59.21.104,eb_music,2023.2.3,119.96494658691083,2010-09-19 00h59.36.401143 -0400,
,,,,0,0,0,0,2,0,2,0,47.50358877238568,,,,,,,,,,,,,,,,,,,,,,,,,,,,,,,,,,,,,,,,,,,,,,,,,,,,,,,,,,,,,,,,,,,,,,,,,,,,,,,,,,,,,,,,,,,,,47.489005177443346,6,"('l',)",musical_stimuli/1102 A+.wav,non boundary,47.50358877238568,47.50358877238568,47.50358877238568,47.50358877238568,47.50358877238568,47.50358877238568,47.50358877238568,47.50358877238568,48.07917485704081,1,['l'],[0.5013438653091953],[None],48.08050785551461,48.08678789024018,48.61197881450073,48.59808254689642,967730,2010-09-19_00h59.21.104,eb_music,2023.2.3,119.96494658691083,2010-09-19 00h59.36.401143 -0400,
,,,,0,0,0,0,3,0,3,0,48.61197881450073,,,,,,,,,,,,,,,,,,,,,,,,,,,,,,,,,,,,,,,,,,,,,,,,,,,,,,,,,,,,,,,,,,,,,,,,,,,,,,,,,,,,,,,,,,,,,48.59909135144801,7,"('l', 'space')",musical_stimuli/1103 A+.wav,non boundary,48.61197881450073,48.61197881450073,48.61197881450073,48.61197881450073,48.61197881450073,48.61197881450073,48.61197881450073,48.61197881450073,49.34596743813154,1,"['space', 'l']","[0.6730009248883562, 0.7129951050943646]","[None, None]",49.347301945888034,49.353580773187424,49.870511393273205,49.85832785966818,967730,2010-09-19_00h59.21.104,eb_music,2023.2.3,119.96494658691083,2010-09-19 00h59.36.401143 -0400,
,,,,0,0,0,0,4,0,4,0,49.870511393273205,,,,,,,,,,,,,,,,,,,,,,,,,,,,,,,,,,,,,,,,,,,,,,,,,,,,,,,,,,,,,,,,,,,,,,,,,,,,,,,,,,,,,,,,,,,,,49.85931704354459,8,"('k',)",musical_stimuli/1105 A+.wav,non boundary,49.870511393273205,49.870511393273205,49.870511393273205,49.870511393273205,49.870511393273205,49.870511393273205,49.870511393273205,49.870511393273205,50.42933206392604,1,['k'],[0.485541977377693],[None],50.43064302687253,50.43701693898149,50.96229479792521,50.94823643335974,967730,2010-09-19_00h59.21.104,eb_music,2023.2.3,119.96494658691083,2010-09-19 00h59.36.401143 -0400,
,,,,0,0,0,0,5,0,5,0,50.96229479792521,,,,,,,,,,,,,,,,,,,,,,,,,,,,,,,,,,,,,,,,,,,,,,,,,,,,,,,,,,,,,,,,,,,,,,,,,,,,,,,,,,,,,,,,,,,,,50.949231654367054,9,"('h', 'j')",musical_stimuli/1104 A+.wav,boundary,50.96229479792521,50.96229479792521,50.96229479792521,50.96229479792521,50.96229479792521,50.96229479792521,50.96229479792521,50.96229479792521,51.75454535575602,1,"['h', 'j']","[0.7217773192242021, 0.7227909534802848]","[None, None]",51.755850583428355,51.76217468920854,52.28769856123097,52.2681298055561,967730,2010-09-19_00h59.21.104,eb_music,2023.2.3,119.96494658691083,2010-09-19 00h59.36.401143 -0400,
,,,,0,0,0,0,6,0,6,0,52.28769856123097,,,,,,,,,,,,,,,,,,,,,,,,,,,,,,,,,,,,,,,,,,,,,,,,,,,,,,,,,,,,,,,,,,,,,,,,,,,,,,,,,,,,,,,,,,,,,52.2690794462261,6,"('l',)",musical_stimuli/1102 A+.wav,non boundary,52.28769856123097,52.28769856123097,52.28769856123097,52.28769856123097,52.28769856123097,52.28769856123097,52.28769856123097,52.28769856123097,52.84639094285501,1,['l'],[0.49244241784674614],[None],52.84772665803757,52.85394632145549,53.37084011504362,53.35818055367736,967730,2010-09-19_00h59.21.104,eb_music,2023.2.3,119.96494658691083,2010-09-19 00h59.36.401143 -0400,
,,,,0,0,0,0,7,0,7,0,53.37084011504362,,,,,,,,,,,,,,,,,,,,,,,,,,,,,,,,,,,,,,,,,,,,,,,,,,,,,,,,,,,,,,,,,,,,,,,,,,,,,,,,,,,,,,,,,,,,,53.35916611527546,9,"('h', 'j')",musical_stimuli/1104 A+.wav,boundary,53.37084011504362,53.37084011504362,53.37084011504362,53.37084011504362,53.37084011504362,53.37084011504362,53.37084011504362,53.37084011504362,54.06309586480688,1,"['h', 'j']","[0.6333460314316426, 0.6413560965361285]","[None, None]",54.0644430505381,54.07074995049559,54.59598675694997,54.57794418793344,967730,2010-09-19_00h59.21.104,eb_music,2023.2.3,119.96494658691083,2010-09-19 00h59.36.401143 -0400,
,,,,0,0,0,0,8,0,8,0,54.59598675694997,,,,,,,,,,,,,,,,,,,,,,,,,,,,,,,,,,,,,,,,,,,,,,,,,,,,,,,,,,,,,,,,,,,,,,,,,,,,,,,,,,,,,,,,,,,,,54.578918882696144,6,"('l',)",musical_stimuli/1102 A+.wav,non boundary,54.59598675694997,54.59598675694997,54.59598675694997,54.59598675694997,54.59598675694997,54.59598675694997,54.59598675694997,54.59598675694997,55.06326701746423,1,['l'],[0.4002768628170088],[None],55.06459156395499,55.070877937667866,55.5961310443754,55.57764867038236,967730,2010-09-19_00h59.21.104,eb_music,2023.2.3,119.96494658691083,2010-09-19 00h59.36.401143 -0400,
,,,,0,0,0,0,9,0,9,0,55.5961310443754,,,,,,,,,,,,,,,,,,,,,,,,,,,,,,,,,,,,,,,,,,,,,,,,,,,,,,,,,,,,,,,,,,,,,,,,,,,,,,,,,,,,,,,,,,,,,55.57868252902654,9,"('h', 'j')",musical_stimuli/1104 A+.wav,boundary,55.5961310443754,55.5961310443754,55.5961310443754,55.5961310443754,55.5961310443754,55.5961310443754,55.5961310443754,55.5961310443754,56.25507813254649,1,"['h', 'j']","[0.576147235960093, 0.5771475885285327]","[None, None]",56.25641565886838,56.26267456363619,56.779602165156575,56.76811229787688,967730,2010-09-19_00h59.21.104,eb_music,2023.2.3,119.96494658691083,2010-09-19 00h59.36.401143 -0400,
,,,,0,0,0,0,10,0,10,0,56.779602165156575,,,,,,,,,,,,,,,,,,,,,,,,,,,,,,,,,,,,,,,,,,,,,,,,,,,,,,,,,,,,,,,,,,,,,,,,,,,,,,,,,,,,,,,,,,,,,56.76909936875768,7,"('l', 'space')",musical_stimuli/1103 A+.wav,non boundary,56.779602165156575,56.779602165156575,56.779602165156575,56.779602165156575,56.779602165156575,56.779602165156575,56.779602165156575,56.779602165156575,57.52190180486059,1,"['space', 'l']","[0.6807417339606445, 0.7047435547592613]","[None, None]",57.52322333278596,57.5294934062458,58.05472326999984,58.03821292477255,967730,2010-09-19_00h59.21.104,eb_music,2023.2.3,119.96494658691083,2010-09-19 00h59.36.401143 -0400,
,,,,0,0,0,0,11,0,11,0,58.05472326999984,,,,,,,,,,,,,,,,,,,,,,,,,,,,,,,,,,,,,,,,,,,,,,,,,,,,,,,,,,,,,,,,,,,,,,,,,,,,,,,,,,,,,,,,,,,,,58.0391915436702,9,"('h', 'j')",musical_stimuli/1104 A+.wav,boundary,58.05472326999984,58.05472326999984,58.05472326999984,58.05472326999984,58.05472326999984,58.05472326999984,58.05472326999984,58.05472326999984,58.69698493615135,1,"['h', 'j']","[0.5656703992233361, 0.5668488471494584]","[None, None]",58.69832548103864,58.70458227281072,59.22151711888807,59.208176871027604,967730,2010-09-19_00h59.21.104,eb_music,2023.2.3,119.96494658691083,2010-09-19 00h59.36.401143 -0400,
,,,,0,0,0,0,12,0,12,0,59.22151711888807,,,,,,,,,,,,,,,,,,,,,,,,,,,,,,,,,,,,,,,,,,,,,,,,,,,,,,,,,,,,,,,,,,,,,,,,,,,,,,,,,,,,,,,,,,,,,59.20914613237255,6,"('l',)",musical_stimuli/1102 A+.wav,non boundary,59.22151711888807,59.22151711888807,59.22151711888807,59.22151711888807,59.22151711888807,59.22151711888807,59.22151711888807,59.22151711888807,59.70538137762492,1,['l'],[0.4229260644668784],[None],59.706729770782204,59.71301916306047,60.22989997681748,60.21820303595234,967730,2010-09-19_00h59.21.104,eb_music,2023.2.3,119.96494658691083,2010-09-19 00h59.36.401143 -0400,
,,,,0,0,0,0,13,0,13,0,60.22989997681748,,,,,,,,,,,,,,,,,,,,,,,,,,,,,,,,,,,,,,,,,,,,,,,,,,,,,,,,,,,,,,,,,,,,,,,,,,,,,,,,,,,,,,,,,,,,,60.21919886067269,7,"('l', 'space')",musical_stimuli/1103 A+.wav,non boundary,60.22989997681748,60.22989997681748,60.22989997681748,60.22989997681748,60.22989997681748,60.22989997681748,60.22989997681748,60.22989997681748,60.94722702509512,1,"['space', 'l']","[0.6466005520352383, 0.6626297379402786]","[None, None]",60.948557005003636,60.954847302851455,61.4717350593088,61.45816087263108,967730,2010-09-19_00h59.21.104,eb_music,2023.2.3,119.96494658691083,2010-09-19 00h59.36.401143 -0400,
,,,,0,0,0,0,14,0,14,0,61.4717350593088,,,,,,,,,,,,,,,,,,,,,,,,,,,,,,,,,,,,,,,,,,,,,,,,,,,,,,,,,,,,,,,,,,,,,,,,,,,,,,,,,,,,,,,,,,,,,61.459172393891436,9,"('h', 'j')",musical_stimuli/1104 A+.wav,boundary,61.4717350593088,61.4717350593088,61.4717350593088,61.4717350593088,61.4717350593088,61.4717350593088,61.4717350593088,61.4717350593088,62.06396460792462,1,"['j', 'h']","[0.532797618472614, 0.5568033634062886]","[None, None]",62.06527526901459,62.071625032600515,62.59685670749377,62.577786920677,967730,2010-09-19_00h59.21.104,eb_music,2023.2.3,119.96494658691083,2010-09-19 00h59.36.401143 -0400,
,,,,0,0,0,0,15,0,15,0,62.59685670749377,,,,,,,,,,,,,,,,,,,,,,,,,,,,,,,,,,,,,,,,,,,,,,,,,,,,,,,,,,,,,,,,,,,,,,,,,,,,,,,,,,,,,,,,,,,,,62.578788782528136,10,"('j',)",musical_stimuli/0301 D.wav,boundary,62.59685670749377,62.59685670749377,62.59685670749377,62.59685670749377,62.59685670749377,62.59685670749377,62.59685670749377,62.59685670749377,63.205874309352225,1,['j'],[0.5437329752912774],[None],63.207237493479965,63.2134293860963,63.73034430964208,63.717758401271226,967730,2010-09-19_00h59.21.104,eb_music,2023.2.3,119.96494658691083,2010-09-19 00h59.36.401143 -0400,
,,,,0,0,0,0,16,0,16,0,63.73034430964208,,,,,,,,,,,,,,,,,,,,,,,,,,,,,,,,,,,,,,,,,,,,,,,,,,,,,,,,,,,,,,,,,,,,,,,,,,,,,,,,,,,,,,,,,,,,,63.71876147054854,12,"('h', 'k')",musical_stimuli/0303 D.wav,non boundary,63.73034430964208,63.73034430964208,63.73034430964208,63.73034430964208,63.73034430964208,63.73034430964208,63.73034430964208,63.73034430964208,64.4141664895775,1,"['h', 'k']","[0.6182704103317747, 0.634274844000629]","[None, None]",64.41548379151129,64.42187340016037,64.94714310897746,64.92766309912486,967730,2010-09-19_00h59.21.104,eb_music,2023.2.3,119.96494658691083,2010-09-19 00h59.36.401143 -0400,
,,,,0,0,0,0,17,0,17,0,64.94714310897746,,,,,,,,,,,,,,,,,,,,,,,,,,,,,,,,,,,,,,,,,,,,,,,,,,,,,,,,,,,,,,,,,,,,,,,,,,,,,,,,,,,,,,,,,,,,,64.92861304165137,14,"('k', 'space')",musical_stimuli/0304 D.wav,boundary,64.94714310897746,64.94714310897746,64.94714310897746,64.94714310897746,64.94714310897746,64.94714310897746,64.94714310897746,64.94714310897746,65.71440900112054,1,"['space', 'k']","[0.7045986636207999, 0.7285533947994054]","[None, None]",65.71579240963626,65.72203078815946,66.24723348482507,66.22777037893866,967730,2010-09-19_00h59.21.104,eb_music,2023.2.3,119.96494658691083,2010-09-19 00h59.36.401143 -0400,
,,,,0,0,0,0,18,0,18,0,66.24723348482507,,,,,,,,,,,,,,,,,,,,,,,,,,,,,,,,,,,,,,,,,,,,,,,,,,,,,,,,,,,,,,,,,,,,,,,,,,,,,,,,,,,,,,,,,,,,,66.22878129648598,12,"('h', 'k')",musical_stimuli/0303 D.wav,non boundary,66.24723348482507,66.24723348482507,66.24723348482507,66.24723348482507,66.24723348482507,66.24723348482507,66.24723348482507,66.24723348482507,66.98949750545762,1,"['h', 'k']","[0.6685536725074144, 0.6695190097174191]","[None, None]",66.99082054266569,66.99715098743317,67.52241767768487,67.50750566282863,967730,2010-09-19_00h59.21.104,eb_music,2023.2.3,119.96494658691083,2010-09-19 00h59.36.401143 -0400,
,,,,0,0,0,0,19,0,19,0,67.52241767768487,,,,,,,,,,,,,,,,,,,,,,,,,,,,,,,,,,,,,,,,,,,,,,,,,,,,,,,,,,,,,,,,,,,,,,,,,,,,,,,,,,,,,,,,,,,,,67.5084797538783,14,"('k', 'space')",musical_stimuli/0304 D.wav,boundary,67.52241767768487,67.52241767768487,67.52241767768487,67.52241767768487,67.52241767768487,67.52241767768487,67.52241767768487,67.52241767768487,68.2730582172594,1,"['space', 'k']","[0.6894047147577567, 0.705400696443462]","[None, None]",68.27443679607063,68.28062446269539,68.80584979860134,68.78779545717987,967730,2010-09-19_00h59.21.104,eb_music,2023.2.3,119.96494658691083,2010-09-19 00h59.36.401143 -0400,
,,,,0,0,0,0,20,0,20,0,68.80584979860134,,,,,,,,,,,,,,,,,,,,,,,,,,,,,,,,,,,,,,,,,,,,,,,,,,,,,,,,,,,,,,,,,,,,,,,,,,,,,,,,,,,,,,,,,,,,,68.7888145248537,11,"('j', 'k')",musical_stimuli/0305 D.wav,non boundary,68.80584979860134,68.80584979860134,68.80584979860134,68.80584979860134,68.80584979860134,68.80584979860134,68.80584979860134,68.80584979860134,69.61536323000996,0,"['k', 'j']","[0.6779888023299918, 0.7419603529549477]","[None, None]",69.61666151498184,69.6224407697101,70.13932369646272,70.12783624403528,967730,2010-09-19_00h59.21.104,eb_music,2023.2.3,119.96494658691083,2010-09-19 00h59.36.401143 -0400,
,,,,0,0,0,0,21,0,21,0,70.13932369646272,,,,,,,,,,,,,,,,,,,,,,,,,,,,,,,,,,,,,,,,,,,,,,,,,,,,,,,,,,,,,,,,,,,,,,,,,,,,,,,,,,,,,,,,,,,,,70.1288109387981,12,"('h', 'k')",musical_stimuli/0303 D.wav,non boundary,70.13932369646272,70.13932369646272,70.13932369646272,70.13932369646272,70.13932369646272,70.13932369646272,70.13932369646272,70.13932369646272,70.9066318485211,1,"['h', 'k']","[0.6966160674612638, 0.7206094362768454]","[None, None]",70.90796665813423,70.91425755969507,71.43116463497086,71.41725840610093,967730,2010-09-19_00h59.21.104,eb_music,2023.2.3,119.96494658691083,2010-09-19 00h59.36.401143 -0400,
,,,,0,0,0,0,22,0,22,0,71.43116463497086,,,,,,,,,,,,,,,,,,,,,,,,,,,,,,,,,,,,,,,,,,,,,,,,,,,,,,,,,,,,,,,,,,,,,,,,,,,,,,,,,,,,,,,,,,,,,71.4182297804416,10,"('j',)",musical_stimuli/0301 D.wav,boundary,71.43116463497086,71.43116463497086,71.43116463497086,71.43116463497086,71.43116463497086,71.43116463497086,71.43116463497086,71.43116463497086,72.04841205349385,1,['j'],[0.5568263045031472],[None],72.04971637559652,72.05602961454119,72.58128091010963,72.5677553223345,967730,2010-09-19_00h59.21.104,eb_music,2023.2.3,119.96494658691083,2010-09-19 00h59.36.401143 -0400,
,,,,0,0,0,0,23,0,23,0,72.58128091010963,,,,,,,,,,,,,,,,,,,,,,,,,,,,,,,,,,,,,,,,,,,,,,,,,,,,,,,,,,,,,,,,,,,,,,,,,,,,,,,,,,,,,,,,,,,,,72.56875627861609,9,"('h', 'j')",musical_stimuli/1104 A+.wav,boundary,72.58128091010963,72.58128091010963,72.58128091010963,72.58128091010963,72.58128091010963,72.58128091010963,72.58128091010963,72.58128091010963,73.24854263663246,1,"['h', 'j']","[0.5987816466395088, 0.6147755153294838]","[None, None]",73.24985420329199,73.25617830907217,73.78141843594858,73.76779715965085,967730,2010-09-19_00h59.21.104,eb_music,2023.2.3,119.96494658691083,2010-09-19 00h59.36.401143 -0400,
,,,,0,0,0,0,24,0,24,0,73.78141843594858,,,,,,,,,,,,,,,,,,,,,,,,,,,,,,,,,,,,,,,,,,,,,,,,,,,,,,,,,,,,,,,,,,,,,,,,,,,,,,,,,,,,,,,,,,,,,73.768804153063,6,"('l',)",musical_stimuli/1102 A+.wav,non boundary,73.78141843594858,73.78141843594858,73.78141843594858,73.78141843594858,73.78141843594858,73.78141843594858,73.78141843594858,73.78141843594858,74.31535194057528,1,['l'],[0.45468922058216776],[None],74.31678455170686,74.32294324010385,74.83981741301704,74.82718169831742,967730,2010-09-19_00h59.21.104,eb_music,2023.2.3,119.96494658691083,2010-09-19 00h59.36.401143 -0400,
,,,,0,0,0,0,25,0,25,0,74.83981741301704,,,,,,,,,,,,,,,,,,,,,,,,,,,,,,,,,,,,,,,,,,,,,,,,,,,,,,,,,,,,,,,,,,,,,,,,,,,,,,,,,,,,,,,,,,,,,74.82816846734158,9,"('h', 'j')",musical_stimuli/1104 A+.wav,boundary,74.83981741301704,74.83981741301704,74.83981741301704,74.83981741301704,74.83981741301704,74.83981741301704,74.83981741301704,74.83981741301704,75.4570458145779,0,"['h', 'space']","[0.5482783310471859, 0.5492672130671963]","[None, None]",75.45837187035136,75.46472918035087,75.98165557444509,75.96719875924896,967730,2010-09-19_00h59.21.104,eb_music,2023.2.3,119.96494658691083,2010-09-19 00h59.36.401143 -0400,
,,,,0,0,0,0,26,0,26,0,75.98165557444509,,,,,,,,,,,,,,,,,,,,,,,,,,,,,,,,,,,,,,,,,,,,,,,,,,,,,,,,,,,,,,,,,,,,,,,,,,,,,,,,,,,,,,,,,,,,,75.96818311342076,10,"('j',)",musical_stimuli/0301 D.wav,boundary,75.98165557444509,75.98165557444509,75.98165557444509,75.98165557444509,75.98165557444509,75.98165557444509,75.98165557444509,75.98165557444509,76.65716039931999,1,['j'],[0.5985066553328124],[None],76.65849400150682,76.66486670618983,77.1818003448409,77.16723365386474,967730,2010-09-19_00h59.21.104,eb_music,2023.2.3,119.96494658691083,2010-09-19 00h59.36.401143 -0400,
,,,,0,0,0,0,27,0,27,0,77.1818003448409,,,,,,,,,,,,,,,,,,,,,,,,,,,,,,,,,,,,,,,,,,,,,,,,,,,,,,,,,,,,,,,,,,,,,,,,,,,,,,,,,,,,,,,,,,,,,77.16823702499869,13,"('k', 'l')",musical_stimuli/0302 D.wav,non boundary,77.1818003448409,77.1818003448409,77.1818003448409,77.1818003448409,77.1818003448409,77.1818003448409,77.1818003448409,77.1818003448409,77.91575968838742,1,"['l', 'k']","[0.6624151179414639, 0.7024307299616339]","[None, None]",77.91710234627044,77.92335128977274,78.44022606639874,78.42728155246027,967730,2010-09-19_00h59.21.104,eb_music,2023.2.3,119.96494658691083,2010-09-19 00h59.36.401143 -0400,
,,,,0,0,0,0,28,0,28,0,78.44022606639874,,,,,,,,,,,,,,,,,,,,,,,,,,,,,,,,,,,,,,,,,,,,,,,,,,,,,,,,,,,,,,,,,,,,,,,,,,,,,,,,,,,,,,,,,,,,,78.42828733844635,10,"('j',)",musical_stimuli/0301 D.wav,boundary,78.44022606639874,78.44022606639874,78.44022606639874,78.44022606639874,78.44022606639874,78.44022606639874,78.44022606639874,78.44022606639874,79.88307466240371,0,"['space', 'j']","[0.4760833027453373, 1.3961061110253468]","[None, None]",79.8843904550547,79.89020744185027,80.41546205784061,80.39751095135534,967730,2010-09-19_00h59.21.104,eb_music,2023.2.3,119.96494658691083,2010-09-19 00h59.36.401143 -0400,
,,,,0,0,0,0,29,0,29,0,80.41546205784061,,,,,,,,,,,,,,,,,,,,,,,,,,,,,,,,,,,,,,,,,,,,,,,,,,,,,,,,,,,,,,,,,,,,,,,,,,,,,,,,,,,,,,,,,,,,,80.39850587050591,11,"('j', 'k')",musical_stimuli/0305 D.wav,non boundary,80.41546205784061,80.41546205784061,80.41546205784061,80.41546205784061,80.41546205784061,80.41546205784061,80.41546205784061,80.41546205784061,81.17438855939577,1,"['j', 'k']","[0.6839580153778115, 0.6848880353727509]","[None, None]",81.17574389525339,81.18205139892402,81.69895636120395,81.68731435822883,967730,2010-09-19_00h59.21.104,eb_music,2023.2.3,119.96494658691083,2010-09-19 00h59.36.401143 -0400,
,,,,0,0,0,0,30,0,30,0,81.69895636120395,,,,,,,,,,,,,,,,,,,,,,,,,,,,,,,,,,,,,,,,,,,,,,,,,,,,,,,,,,,,,,,,,,,,,,,,,,,,,,,,,,,,,,,,,,,,,81.68829237341356,10,"('j',)",musical_stimuli/0301 D.wav,boundary,81.69895636120395,81.69895636120395,81.69895636120395,81.69895636120395,81.69895636120395,81.69895636120395,81.69895636120395,81.69895636120395,83.14177929940297,0,"['h', 'j']","[0.8804512272279226, 1.3605274882636422]","[None, None]",83.1430842252189,83.14892204011548,83.67412503863761,83.65750632691311,967730,2010-09-19_00h59.21.104,eb_music,2023.2.3,119.96494658691083,2010-09-19 00h59.36.401143 -0400,
,,,,0,0,0,0,31,0,31,0,83.67412503863761,,,,,,,,,,,,,,,,,,,,,,,,,,,,,,,,,,,,,,,,,,,,,,,,,,,,,,,,,,,,,,,,,,,,,,,,,,,,,,,,,,,,,,,,,,,,,83.65854441154875,9,"('h', 'j')",musical_stimuli/1104 A+.wav,boundary,83.67412503863761,83.67412503863761,83.67412503863761,83.67412503863761,83.67412503863761,83.67412503863761,83.67412503863761,83.67412503863761,84.6414541999111,1,"['h', 'j']","[0.8894054995846545, 0.8903922686088208]","[None, None]",84.6427935373722,84.64907477952406,85.17431007669575,85.15755643509851,967730,2010-09-19_00h59.21.104,eb_music,2023.2.3,119.96494658691083,2010-09-19 00h59.36.401143 -0400,
,,,,0,0,0,0,32,0,32,0,85.17431007669575,,,,,,,,,,,,,,,,,,,,,,,,,,,,,,,,,,,,,,,,,,,,,,,,,,,,,,,,,,,,,,,,,,,,,,,,,,,,,,,,,,,,,,,,,,,,,85.1585498449665,10,"('j',)",musical_stimuli/0301 D.wav,boundary,85.17431007669575,85.17431007669575,85.17431007669575,85.17431007669575,85.17431007669575,85.17431007669575,85.17431007669575,85.17431007669575,85.72489911954494,1,['j'],[0.4772466578442618],[None],85.72622970316638,85.73257373147803,86.24944820624773,86.23703948766502,967730,2010-09-19_00h59.21.104,eb_music,2023.2.3,119.96494658691083,2010-09-19 00h59.36.401143 -0400,
,,,,0,0,0,0,33,0,33,0,86.24944820624773,,,,,,,,,,,,,,,,,,,,,,,,,,,,,,,,,,,,,,,,,,,,,,,,,,,,,,,,,,,,,,,,,,,,,,,,,,,,,,,,,,,,,,,,,,,,,86.23805402749076,13,"('k', 'l')",musical_stimuli/0302 D.wav,non boundary,86.24944820624773,86.24944820624773,86.24944820624773,86.24944820624773,86.24944820624773,86.24944820624773,86.24944820624773,86.24944820624773,87.28386679433197,0,"['k', 'l']","[0.7061631860594844, 0.9621734515967546]","[None, None]",87.28518590740487,87.2910318724283,87.81628407356607,87.79712523907051,967730,2010-09-19_00h59.21.104,eb_music,2023.2.3,119.96494658691083,2010-09-19 00h59.36.401143 -0400,
,,,,0,0,0,0,34,0,34,0,87.81628407356607,,,,,,,,,,,,,,,,,,,,,,,,,,,,,,,,,,,,,,,,,,,,,,,,,,,,,,,,,,,,,,,,,,,,,,,,,,,,,,,,,,,,,,,,,,,,,87.79810748024647,12,"('h', 'k')",musical_stimuli/0303 D.wav,non boundary,87.81628407356607,87.81628407356607,87.81628407356607,87.81628407356607,87.81628407356607,87.81628407356607,87.81628407356607,87.81628407356607,89.08410296688749,0,"['space', 'k', 'j']","[0.7074273612427078, 0.7873970065490994, 1.227430186619813]","[None, None, None]",89.08542721152185,89.09122789806437,89.61647164721899,89.59751233989527,967730,2010-09-19_00h59.21.104,eb_music,2023.2.3,119.96494658691083,2010-09-19 00h59.36.401143 -0400,
,,,,0,0,0,0,35,0,35,0,89.61647164721899,,,,,,,,,,,,,,,,,,,,,,,,,,,,,,,,,,,,,,,,,,,,,,,,,,,,,,,,,,,,,,,,,,,,,,,,,,,,,,,,,,,,,,,,,,,,,89.59850122191528,10,"('j',)",musical_stimuli/0301 D.wav,boundary,89.61647164721899,89.61647164721899,89.61647164721899,89.61647164721899,89.61647164721899,89.61647164721899,89.61647164721899,89.61647164721899,92.5089379721037,1,['j'],[2.8113804140989487],[None],92.51027942256064,92.51659024665295,93.0418512016306,93.02675746913815,967730,2010-09-19_00h59.21.104,eb_music,2023.2.3,119.96494658691083,2010-09-19 00h59.36.401143 -0400,
,,,,0,0,0,0,36,0,36,0,93.0418512016306,,,,,,,,,,,,,,,,,,,,,,,,,,,,,,,,,,,,,,,,,,,,,,,,,,,,,,,,,,,,,,,,,,,,,,,,,,,,,,,,,,,,,,,,,,,,,93.0277753293858,12,"('h', 'k')",musical_stimuli/0303 D.wav,non boundary,93.0418512016306,93.0418512016306,93.0418512016306,93.0418512016306,93.0418512016306,93.0418512016306,93.0418512016306,93.0418512016306,97.11829697370717,0,"['h', 'k']","[0.5540395649402399, 4.001272325309628]","[None, None]",97.11961970905872,97.1254261308753,97.65065207049429,97.63697102660194,967730,2010-09-19_00h59.21.104,eb_music,2023.2.3,119.96494658691083,2010-09-19 00h59.36.401143 -0400,
,,,,0,0,0,0,37,0,37,0,97.65065207049429,,,,,,,,,,,,,,,,,,,,,,,,,,,,,,,,,,,,,,,,,,,,,,,,,,,,,,,,,,,,,,,,,,,,,,,,,,,,,,,,,,,,,,,,,,,,,97.63796262533083,10,"('j',)",musical_stimuli/0301 D.wav,boundary,97.65065207049429,97.65065207049429,97.65065207049429,97.65065207049429,97.65065207049429,97.65065207049429,97.65065207049429,97.65065207049429,98.4929673463671,1,['j'],[0.7604475566524798],[None],98.49433988804753,98.50055170319533,99.0258304677086,99.00708819523607,967730,2010-09-19_00h59.21.104,eb_music,2023.2.3,119.96494658691083,2010-09-19 00h59.36.401143 -0400,
,,,,0,0,0,0,38,0,38,0,99.0258304677086,,,,,,,,,,,,,,,,,,,,,,,,,,,,,,,,,,,,,,,,,,,,,,,,,,,,,,,,,,,,,,,,,,,,,,,,,,,,,,,,,,,,,,,,,,,,,99.00809367936563,13,"('k', 'l')",musical_stimuli/0302 D.wav,non boundary,99.0258304677086,99.0258304677086,99.0258304677086,99.0258304677086,99.0258304677086,99.0258304677086,99.0258304677086,99.0258304677086,99.99311404864488,1,"['l', 'k']","[0.8893837659138626, 0.9133783421555108]","[None, None]",99.99445097125363,100.00073945796234,100.52598018855178,100.50684308772679,967730,2010-09-19_00h59.21.104,eb_music,2023.2.3,119.96494658691083,2010-09-19 00h59.36.401143 -0400,
,,,,0,0,0,0,39,0,39,0,100.52598018855178,,,,,,,,,,,,,,,,,,,,,,,,,,,,,,,,,,,,,,,,,,,,,,,,,,,,,,,,,,,,,,,,,,,,,,,,,,,,,,,,,,,,,,,,,,,,,100.50784857185636,11,"('j', 'k')",musical_stimuli/0305 D.wav,non boundary,100.52598018855178,100.52598018855178,100.52598018855178,100.52598018855178,100.52598018855178,100.52598018855178,100.52598018855178,100.52598018855178,101.58551233506569,0,"['k', 'j', 'k']","[0.5412722407895671, 1.0212860175220158, 1.0452751603461365]","[None, None, None]",101.58693015522681,101.59257508379537,102.10944171029496,102.09737952301839,967730,2010-09-19_00h59.21.104,eb_music,2023.2.3,119.96494658691083,2010-09-19 00h59.36.401143 -0400,
,,,,0,0,0,0,40,0,40,0,102.10944171029496,,,,,,,,,,,,,,,,,,,,,,,,,,,,,,,,,,,,,,,,,,,,,,,,,,,,,,,,,,,,,,,,,,,,,,,,,,,,,,,,,,,,,,,,,,,,,102.0983807811565,14,"('k', 'space')",musical_stimuli/0304 D.wav,boundary,102.10944171029496,102.10944171029496,102.10944171029496,102.10944171029496,102.10944171029496,102.10944171029496,102.10944171029496,102.10944171029496,102.97677847835325,1,"['k', 'space']","[0.7898571373375489, 0.7908475286401426]","[None, None]",102.97813290864133,102.98439634125734,103.50132515020391,103.4871128388038,967730,2010-09-19_00h59.21.104,eb_music,2023.2.3,119.96494658691083,2010-09-19 00h59.36.401143 -0400,
,,,,0,0,0,0,41,0,41,0,103.50132515020391,,,,,,,,,,,,,,,,,,,,,,,,,,,,,,,,,,,,,,,,,,,,,,,,,,,,,,,,,,,,,,,,,,,,,,,,,,,,,,,,,,,,,,,,,,,,,103.48813522689966,12,"('h', 'k')",musical_stimuli/0303 D.wav,non boundary,103.50132515020391,103.50132515020391,103.50132515020391,103.50132515020391,103.50132515020391,103.50132515020391,103.50132515020391,103.50132515020391,104.86863565674321,1,"['h', 'k']","[1.286061895079456, 1.3020593860478584]","[None, None]",104.8699448085506,104.87625955677808,105.40148881681898,105.38659823377702,967730,2010-09-19_00h59.21.104,eb_music,2023.2.3,119.96494658691083,2010-09-19 00h59.36.401143 -0400,
,,,,0,0,0,0,42,0,42,0,105.40148881681898,,,,,,,,,,,,,,,,,,,,,,,,,,,,,,,,,,,,,,,,,,,,,,,,,,,,,,,,,,,,,,,,,,,,,,,,,,,,,,,,,,,,,,,,,,,,,105.38761066060692,13,"('k', 'l')",musical_stimuli/0302 D.wav,non boundary,105.40148881681898,105.40148881681898,105.40148881681898,105.40148881681898,105.40148881681898,105.40148881681898,105.40148881681898,105.40148881681898,106.17714511330496,1,"['l', 'k']","[0.6979937407027137, 0.7219862039487452]","[None, None]",106.17850739186292,106.18476840962657,106.70996597473095,106.69650438054214,967730,2010-09-19_00h59.21.104,eb_music,2023.2.3,119.96494658691083,2010-09-19 00h59.36.401143 -0400,
,,,,0,0,0,0,43,0,43,0,106.70996597473095,,,,,,,,,,,,,,,,,,,,,,,,,,,,,,,,,,,,,,,,,,,,,,,,,,,,,,,,,,,,,,,,,,,,,,,,,,,,,,,,,,,,,,,,,,,,,106.69749869597968,11,"('j', 'k')",musical_stimuli/0305 D.wav,non boundary,106.70996597473095,106.70996597473095,106.70996597473095,106.70996597473095,106.70996597473095,106.70996597473095,106.70996597473095,106.70996597473095,107.45223814549013,1,"['j', 'k']","[0.6695600622065285, 0.6705329458300184]","[None, None]",107.45359136835191,107.45987079936444,107.98511998193703,107.96643959005473,967730,2010-09-19_00h59.21.104,eb_music,2023.2.3,119.96494658691083,2010-09-19 00h59.36.401143 -0400,
,,,,0,0,0,0,44,0,44,0,107.98511998193703,,,,,,,,,,,,,,,,,,,,,,,,,,,,,,,,,,,,,,,,,,,,,,,,,,,,,,,,,,,,,,,,,,,,,,,,,,,,,,,,,,,,,,,,,,,,,107.96746258186363,12,"('h', 'k')",musical_stimuli/0303 D.wav,non boundary,107.98511998193703,107.98511998193703,107.98511998193703,107.98511998193703,107.98511998193703,107.98511998193703,107.98511998193703,107.98511998193703,108.80287802098019,0,"['h', 'k', 'space']","[0.682462316229703, 0.7544502709463359, 0.7944643736839225]","[None, None, None]",108.80418324865263,108.81002710068,109.3352826222399,109.31664871626458,967730,2010-09-19_00h59.21.104,eb_music,2023.2.3,119.96494658691083,2010-09-19 00h59.36.401143 -0400,
,,,,,,,,,,,,109.3352826222399,,,,,,,,,,,,,,,,,,,,,,,,,,,,,,,,,,,,,,,,,,,,,,,,,,,,,,,,,,,,,,,,,,,,,,,,,,,,,,,,,,,,,,,,,,,,,109.31765752081606,11,"('j', 'k')",musical_stimuli/0305 D.wav,non boundary,109.3352826222399,109.3352826222399,109.3352826222399,109.3352826222399,109.3352826222399,109.3352826222399,109.3352826222399,109.3352826222399,,,,,,,,,,,,,,,,
